<?xml version="1.0" encoding="UTF-8"?>
<Bundle xmlns="http://hl7.org/fhir">
	<id value="91446b7b-6e1e-468d-bc6a-de8b8ebdc8ef"/>
	<meta>
		<profile value="https://fhir.gkvsv.de/StructureDefinition/GKVSV_PR_TA7_Rechnung_Bundle|1.3"/>
		<tag>
			<display value="Beispiel der TA7/eAbrechnungsdaten."/>
		</tag>
		<tag>
			<display value="ACHTUNG! Der fachlich korrekte Inhalt der Beispielinstanz kann nicht gew채hrleistet werden. Wir sind jederzeit dankbar f체r Hinweise auf Fehler oder f체r Verbesserungsvorschl채ge."/>
		</tag>
	</meta>
	<identifier>
		<extension url="https://fhir.gkvsv.de/StructureDefinition/GKVSV_EX_ERP_TA7_Dateinummer">
			<valueString value="00001"/>
		</extension>
		<system value="https://fhir.gkvsv.de/NamingSystem/GKVSV_NS_Dateiname"/>
		<value value="ARZFHR23001"/>
	</identifier>
	<type value="collection"/>
	<timestamp value="2023-08-10T10:00:00Z"/>
	<entry>
		<fullUrl value="urn:uuid:fa1a7ffa-194c-45b4-a3bd-81b2729b5bfd"/>
		<resource>
			<Composition>
				<id value="fa1a7ffa-194c-45b4-a3bd-81b2729b5bfd"/>
				<meta>
					<profile value="https://fhir.gkvsv.de/StructureDefinition/GKVSV_PR_TA7_Rechnung_Composition|1.3"/>
				</meta>
				<extension url="https://fhir.gkvsv.de/StructureDefinition/GKVSV_EX_TA7_IK_Empfaenger">
					<valueIdentifier>
						<system value="http://fhir.de/sid/arge-ik/iknr"/>
						<value value="102109128"/>
					</valueIdentifier>
				</extension>
				<extension url="https://fhir.gkvsv.de/StructureDefinition/GKVSV_EX_TA7_IK_Kostentraeger">
					<valueIdentifier>
						<system value="http://fhir.de/sid/arge-ik/iknr"/>
						<value value="105508787"/>
					</valueIdentifier>
				</extension>
				<identifier>
					<system value="https://fhir.gkvsv.de/NamingSystem/GKVSV_NS_Rechnungsnummer"/>
					<value value="105508787-01-100823"/>
				</identifier>
				<status value="final"/>
				<type>
					<coding>
						<system value="https://fhir.gkvsv.de/CodeSystem/GKVSV_CS_ERP_Rechnungsart"/>
						<code value="6"/>
					</coding>
				</type>
				<date value="2023-07-31">
					<extension url="https://fhir.gkvsv.de/StructureDefinition/GKVSV_EX_ERP_TA7_Rechnungsdatum">
						<valueDateTime value="2023-08-10"/>
					</extension>
				</date>
				<author>
					<identifier>
						<system value="http://fhir.de/sid/arge-ik/iknr"/>
						<value value="307503662"/>
					</identifier>
				</author>
				<title value="elektronische Rechnung"/>
				<section>
					<code>
						<coding>
							<system value="https://fhir.gkvsv.de/CodeSystem/GKVSV_CS_ERP_TA7"/>
							<code value="LR"/>
						</coding>
					</code>
					<entry>
						<reference value="urn:uuid:a461d39c-e885-42ad-97a9-86ccffb3c850"/>
					</entry>
				</section>
				<section>
					<code>
						<coding>
							<system value="https://fhir.gkvsv.de/CodeSystem/GKVSV_CS_ERP_TA7"/>
							<code value="RB"/>
							<display value="Rezept-Bundle"/>
						</coding>
					</code>
					<entry>
						<reference value="urn:uuid:284e62c8-9797-4e61-9722-45959858a305"/>
					</entry>
				</section>
				<section>
					<code>
						<coding>
							<system value="https://fhir.gkvsv.de/CodeSystem/GKVSV_CS_ERP_TA7"/>
							<code value="RB"/>
							<display value="Rezept-Bundle"/>
						</coding>
					</code>
					<entry>
						<reference value="urn:uuid:db1d2807-a54c-4799-a5be-ab555a77d103"/>
					</entry>
				</section>
				<section>
					<code>
						<coding>
							<system value="https://fhir.gkvsv.de/CodeSystem/GKVSV_CS_ERP_TA7"/>
							<code value="RB"/>
							<display value="Rezept-Bundle"/>
						</coding>
					</code>
					<entry>
						<reference value="urn:uuid:c066c6f9-2795-46b4-a445-d7b4b4da7d18"/>
					</entry>
				</section>
			</Composition>
		</resource>
	</entry>
	<entry>
		<fullUrl value="urn:uuid:a461d39c-e885-42ad-97a9-86ccffb3c850"/>
		<resource>
			<List>
				<id value="a461d39c-e885-42ad-97a9-86ccffb3c850"/>
				<meta>
					<profile value="https://fhir.gkvsv.de/StructureDefinition/GKVSV_PR_TA7_Rechnung_List|1.3"/>
				</meta>
				<status value="current"/>
				<mode value="working"/>
				<entry>
					<item>
						<identifier>
							<system value="https://fhir.gkvsv.de/NamingSystem/GKVSV_NS_Dateiname"/>
							<value value="ARZFHR23001"/>
						</identifier>
					</item>
				</entry>
				<entry>
					<item>
						<identifier>
							<system value="https://fhir.gkvsv.de/NamingSystem/GKVSV_NS_Dateiname"/>
							<value value="ARZFHR23002"/>
						</identifier>
					</item>
				</entry>
				<entry>
					<item>
						<identifier>
							<system value="https://fhir.gkvsv.de/NamingSystem/GKVSV_NS_Dateiname"/>
							<value value="ARZFK123003"/>
						</identifier>
					</item>
				</entry>
				<entry>
					<item>
						<identifier>
							<system value="https://fhir.gkvsv.de/NamingSystem/GKVSV_NS_Dateiname"/>
							<value value="ARZFHR23004"/>
						</identifier>
					</item>
				</entry>
			</List>
		</resource>
	</entry>
	<entry>
		<fullUrl value="urn:uuid:284e62c8-9797-4e61-9722-45959858a305"/>
		<resource>
			<Bundle>
				<id value="284e62c8-9797-4e61-9722-45959858a305"/>
				<meta>
					<profile value="https://fhir.gkvsv.de/StructureDefinition/GKVSV_PR_TA7_RezeptBundle|1.3"/>
				</meta>
				<type value="collection"/>
				<entry>
					<link>
						<relation value="item"/>
						<url value="https://fhir.kbv.de/StructureDefinition/KBV_PR_ERP_Bundle"/>
					</link>
					<fullUrl value="urn:uuid:a9aea390-b695-476c-94c3-8f0125472a97"/>
					<resource>
						<Binary>
							<id value="a9aea390-b695-476c-94c3-8f0125472a97"/>
							<meta>
								<profile value="https://fhir.gkvsv.de/StructureDefinition/GKVSV_PR_Binary|1.3"/>
							</meta>
							<contentType value="application/pkcs7-mime"/>
							<data value=""/>
						</Binary>
					</resource>
				</entry>
				<entry>
					<link>
						<relation value="item"/>
						<url value="https://gematik.de/fhir/StructureDefinition/ErxReceipt"/>
					</link>
					<fullUrl value="urn:uuid:d219342a-c907-4ff6-abbb-f4765441dacc"/>
					<resource>
						<Binary>
							<id value="d219342a-c907-4ff6-abbb-f4765441dacc"/>
							<meta>
								<profile value="https://fhir.gkvsv.de/StructureDefinition/GKVSV_PR_Binary|1.3"/>
							</meta>
							<contentType value="application/pkcs7-mime"/>
							<data value=""/>
						</Binary>
					</resource>
				</entry>
				<entry>
					<link>
						<relation value="item"/>
						<url value="http://fhir.abda.de/eRezeptAbgabedaten/StructureDefinition/DAV-PR-ERP-AbgabedatenBundle"/>
					</link>
					<fullUrl value="urn:uuid:60fbad4f-115d-4390-9ecc-ad371463fb98"/>
					<resource>
						<Binary>
							<id value="60fbad4f-115d-4390-9ecc-ad371463fb98"/>
							<meta>
								<profile value="https://fhir.gkvsv.de/StructureDefinition/GKVSV_PR_Binary|1.3"/>
							</meta>
							<contentType value="application/pkcs7-mime"/>
							<data value=""/>
						</Binary>
					</resource>
				</entry>
				<entry>
					<link>
						<relation value="item"/>
						<url value="https://fhir.gkvsv.de/StructureDefinition/GKVSV_PR_ERP_eAbrechnungsdaten"/>
					</link>
					<fullUrl value="urn:uuid:96c78f3a-49a2-449b-876e-d8743fa8d6c6"/>
					<resource>
						<Invoice>
							<id value="96c78f3a-49a2-449b-876e-d8743fa8d6c6"/>
							<meta>
								<profile value="https://fhir.gkvsv.de/StructureDefinition/GKVSV_PR_ERP_eAbrechnungsdaten|1.3"/>
							</meta>
							<extension url="https://fhir.gkvsv.de/StructureDefinition/GKVSV_EX_ERP_Irrlaeufer">
								<valueBoolean value="false"/>
							</extension>
							<identifier>
								<system value="https://gematik.de/fhir/erp/NamingSystem/GEM_ERP_NS_PrescriptionId"/>
								<value value="160.100.000.000.023.70"/>
							</identifier>
							<identifier>
								<system value="https://fhir.gkvsv.de/NamingSystem/GKVSV_NS_Belegnummer"/>
								<value value="2105523450040000001"/>
							</identifier>
							<status value="issued"/>
							<issuer>
								<extension url="https://fhir.gkvsv.de/StructureDefinition/GKVSV_EX_ERP_LE_Sitz">
									<valueCoding>
										<system value="https://fhir.gkvsv.de/CodeSystem/GKVSV_CS_ERP_Leistungserbringer_Sitz"/>
										<code value="1"/>
									</valueCoding>
								</extension>
								<identifier>
									<type>
										<coding>
											<system value="https://fhir.gkvsv.de/CodeSystem/GKVSV_CS_ERP_Leistungserbringertyp"/>
											<code value="A"/>
										</coding>
									</type>
									<system value="http://fhir.de/sid/arge-ik/iknr"/>
									<value value="308412345"/>
								</identifier>
							</issuer>
							<lineItem>
								<extension url="https://fhir.gkvsv.de/StructureDefinition/GKVSV_EX_ERP_Positionstyp">
									<valueCodeableConcept>
										<coding>
											<system value="https://fhir.gkvsv.de/CodeSystem/GKVSV_CS_ERP_Positionstyp"/>
											<code value="1"/>
											<display value="체brige Position"/>
										</coding>
									</valueCodeableConcept>
								</extension>
								<extension url="https://fhir.gkvsv.de/StructureDefinition/GKVSV_EX_ERP_VAT_VALUE">
									<valueMoney>
										<value value="2.47"/>
										<currency value="EUR"/>
									</valueMoney>
								</extension>
								<extension url="https://fhir.gkvsv.de/StructureDefinition/GKVSV_EX_ERP_Import">
									<valueCodeableConcept>
										<coding>
											<system value="https://fhir.gkvsv.de/CodeSystem/GKVSV_CS_ERP_Import"/>
											<code value="0"/>
										</coding>
									</valueCodeableConcept>
								</extension>
								<sequence value="1"/>
								<chargeItemCodeableConcept>
									<coding>
										<system value="http://terminology.hl7.org/CodeSystem/v3-NullFlavor"/>
										<code value="UNC"/>
									</coding>
								</chargeItemCodeableConcept>
								<priceComponent>
									<type value="deduction"/>
									<code>
										<coding>
											<system value="https://fhir.gkvsv.de/CodeSystem/GKVSV_CS_ERP_ZuAbschlagKey"/>
											<code value="R001"/>
										</coding>
									</code>
									<amount>
										<value value="-1.77"/>
										<currency value="EUR"/>
									</amount>
								</priceComponent>
							</lineItem>
						</Invoice>
					</resource>
				</entry>
			</Bundle>
		</resource>
	</entry>
	<entry>
		<fullUrl value="urn:uuid:db1d2807-a54c-4799-a5be-ab555a77d103"/>
		<resource>
			<Bundle>
				<id value="db1d2807-a54c-4799-a5be-ab555a77d103"/>
				<meta>
					<profile value="https://fhir.gkvsv.de/StructureDefinition/GKVSV_PR_TA7_RezeptBundle|1.3"/>
				</meta>
				<type value="collection"/>
				<entry>
					<link>
						<relation value="item"/>
						<url value="https://fhir.kbv.de/StructureDefinition/KBV_PR_ERP_Bundle"/>
					</link>
					<fullUrl value="urn:uuid:7cbfa3cd-598e-4afc-aa99-9cc93bbb0253"/>
					<resource>
						<Binary>
							<id value="7cbfa3cd-598e-4afc-aa99-9cc93bbb0253"/>
							<meta>
								<profile value="https://fhir.gkvsv.de/StructureDefinition/GKVSV_PR_Binary|1.3"/>
							</meta>
							<contentType value="application/pkcs7-mime"/>
							<data value=""/>
						</Binary>
					</resource>
				</entry>
				<entry>
					<link>
						<relation value="item"/>
						<url value="https://gematik.de/fhir/StructureDefinition/ErxReceipt"/>
					</link>
					<fullUrl value="urn:uuid:58fbedb2-54ed-4ef8-9b48-650b7b4a28ad"/>
					<resource>
						<Binary>
							<id value="58fbedb2-54ed-4ef8-9b48-650b7b4a28ad"/>
							<meta>
								<profile value="https://fhir.gkvsv.de/StructureDefinition/GKVSV_PR_Binary|1.3"/>
							</meta>
							<contentType value="application/pkcs7-mime"/>
							<data value=""/>
						</Binary>
					</resource>
				</entry>
				<entry>
					<link>
						<relation value="item"/>
						<url value="http://fhir.abda.de/eRezeptAbgabedaten/StructureDefinition/DAV-PR-ERP-AbgabedatenBundle"/>
					</link>
					<fullUrl value="urn:uuid:ea421499-ec05-433d-95e6-c6e40cf45721"/>
					<resource>
						<Binary>
							<id value="ea421499-ec05-433d-95e6-c6e40cf45721"/>
							<meta>
								<profile value="https://fhir.gkvsv.de/StructureDefinition/GKVSV_PR_Binary|1.3"/>
							</meta>
							<contentType value="application/pkcs7-mime"/>
							<data value=""/>
						</Binary>
					</resource>
				</entry>
				<entry>
					<link>
						<relation value="item"/>
						<url value="https://fhir.gkvsv.de/StructureDefinition/GKVSV_PR_ERP_eAbrechnungsdaten"/>
					</link>
					<fullUrl value="urn:uuid:a47f834d-3c2b-4751-a547-58d1f3a8cfa8"/>
					<resource>
						<Invoice>
							<id value="a47f834d-3c2b-4751-a547-58d1f3a8cfa8"/>
							<meta>
								<profile value="https://fhir.gkvsv.de/StructureDefinition/GKVSV_PR_ERP_eAbrechnungsdaten|1.3"/>
							</meta>
							<extension url="https://fhir.gkvsv.de/StructureDefinition/GKVSV_EX_ERP_Irrlaeufer">
								<valueBoolean value="false"/>
							</extension>
							<identifier>
								<system value="https://gematik.de/fhir/erp/NamingSystem/GEM_ERP_NS_PrescriptionId"/>
								<value value="160.100.000.000.023.71"/>
							</identifier>
							<identifier>
								<system value="https://fhir.gkvsv.de/NamingSystem/GKVSV_NS_Belegnummer"/>
								<value value="2105523450050000002"/>
							</identifier>
							<status value="issued"/>
							<issuer>
								<extension url="https://fhir.gkvsv.de/StructureDefinition/GKVSV_EX_ERP_LE_Sitz">
									<valueCoding>
										<system value="https://fhir.gkvsv.de/CodeSystem/GKVSV_CS_ERP_Leistungserbringer_Sitz"/>
										<code value="1"/>
									</valueCoding>
								</extension>
								<identifier>
									<type>
										<coding>
											<system value="https://fhir.gkvsv.de/CodeSystem/GKVSV_CS_ERP_Leistungserbringertyp"/>
											<code value="A"/>
										</coding>
									</type>
									<system value="http://fhir.de/sid/arge-ik/iknr"/>
									<value value="308412345"/>
								</identifier>
							</issuer>
							<lineItem>
								<extension url="https://fhir.gkvsv.de/StructureDefinition/GKVSV_EX_ERP_Positionstyp">
									<valueCodeableConcept>
										<coding>
											<system value="https://fhir.gkvsv.de/CodeSystem/GKVSV_CS_ERP_Positionstyp"/>
											<code value="1"/>
											<display value="체brige Position"/>
										</coding>
									</valueCodeableConcept>
								</extension>
								<extension url="https://fhir.gkvsv.de/StructureDefinition/GKVSV_EX_ERP_VAT_VALUE">
									<valueMoney>
										<value value="2.47"/>
										<currency value="EUR"/>
									</valueMoney>
								</extension>
								<extension url="https://fhir.gkvsv.de/StructureDefinition/GKVSV_EX_ERP_Import">
									<valueCodeableConcept>
										<coding>
											<system value="https://fhir.gkvsv.de/CodeSystem/GKVSV_CS_ERP_Import"/>
											<code value="0"/>
										</coding>
									</valueCodeableConcept>
								</extension>
								<sequence value="1"/>
								<chargeItemCodeableConcept>
									<coding>
										<system value="http://terminology.hl7.org/CodeSystem/v3-NullFlavor"/>
										<code value="UNC"/>
									</coding>
								</chargeItemCodeableConcept>
								<priceComponent>
									<type value="deduction"/>
									<code>
										<coding>
											<system value="https://fhir.gkvsv.de/CodeSystem/GKVSV_CS_ERP_ZuAbschlagKey"/>
											<code value="R001"/>
										</coding>
									</code>
									<amount>
										<value value="-1.77"/>
										<currency value="EUR"/>
									</amount>
								</priceComponent>
							</lineItem>
						</Invoice>
					</resource>
				</entry>
			</Bundle>
		</resource>
	</entry>
	<entry>
		<fullUrl value="urn:uuid:c066c6f9-2795-46b4-a445-d7b4b4da7d18"/>
		<resource>
			<Bundle>
				<id value="c066c6f9-2795-46b4-a445-d7b4b4da7d18"/>
				<meta>
					<profile value="https://fhir.gkvsv.de/StructureDefinition/GKVSV_PR_TA7_RezeptBundle|1.3"/>
				</meta>
				<type value="collection"/>
				<entry>
					<link>
						<relation value="item"/>
						<url value="https://fhir.kbv.de/StructureDefinition/KBV_PR_ERP_Bundle"/>
					</link>
					<fullUrl value="urn:uuid:a1f93d2a-6872-454b-8154-e81d429269f0"/>
					<resource>
						<Binary>
							<id value="a1f93d2a-6872-454b-8154-e81d429269f0"/>
							<meta>
								<profile value="https://fhir.gkvsv.de/StructureDefinition/GKVSV_PR_Binary|1.3"/>
							</meta>
							<contentType value="application/pkcs7-mime"/>
							<data value=""/>
						</Binary>
					</resource>
				</entry>
				<entry>
					<link>
						<relation value="item"/>
						<url value="https://gematik.de/fhir/StructureDefinition/ErxReceipt"/>
					</link>
					<fullUrl value="urn:uuid:86bb641f-3d58-4aad-b0a6-42a7c416782f"/>
					<resource>
						<Binary>
							<id value="86bb641f-3d58-4aad-b0a6-42a7c416782f"/>
							<meta>
								<profile value="https://fhir.gkvsv.de/StructureDefinition/GKVSV_PR_Binary|1.3"/>
							</meta>
							<contentType value="application/pkcs7-mime"/>
							<data value=""/>
						</Binary>
					</resource>
				</entry>
				<entry>
					<link>
						<relation value="item"/>
						<url value="http://fhir.abda.de/eRezeptAbgabedaten/StructureDefinition/DAV-PR-ERP-AbgabedatenBundle"/>
					</link>
					<fullUrl value="urn:uuid:c1663654-8658-4563-b61e-1f7c66828f01"/>
					<resource>
						<Binary>
							<id value="c1663654-8658-4563-b61e-1f7c66828f01"/>
							<meta>
								<profile value="https://fhir.gkvsv.de/StructureDefinition/GKVSV_PR_Binary|1.3"/>
							</meta>
							<contentType value="application/pkcs7-mime"/>
							<data value=""/>
						</Binary>
					</resource>
				</entry>
				<entry>
					<link>
						<relation value="item"/>
						<url value="https://fhir.gkvsv.de/StructureDefinition/GKVSV_PR_ERP_eAbrechnungsdaten"/>
					</link>
					<fullUrl value="urn:uuid:c69efd0e-9c36-44e5-bc23-3f480724dd7d"/>
					<resource>
						<Invoice>
							<id value="c69efd0e-9c36-44e5-bc23-3f480724dd7d"/>
							<meta>
								<profile value="https://fhir.gkvsv.de/StructureDefinition/GKVSV_PR_ERP_eAbrechnungsdaten|1.3"/>
							</meta>
							<extension url="https://fhir.gkvsv.de/StructureDefinition/GKVSV_EX_ERP_Irrlaeufer">
								<valueBoolean value="false"/>
							</extension>
							<identifier>
								<system value="https://gematik.de/fhir/erp/NamingSystem/GEM_ERP_NS_PrescriptionId"/>
								<value value="160.100.000.000.001.39"/>
							</identifier>
							<identifier>
								<system value="https://fhir.gkvsv.de/NamingSystem/GKVSV_NS_Belegnummer"/>
								<value value="2105000001051234561"/>
							</identifier>
							<status value="issued"/>
							<issuer>
								<extension url="https://fhir.gkvsv.de/StructureDefinition/GKVSV_EX_ERP_LE_Sitz">
									<valueCoding>
										<system value="https://fhir.gkvsv.de/CodeSystem/GKVSV_CS_ERP_Leistungserbringer_Sitz"/>
										<code value="1"/>
									</valueCoding>
								</extension>
								<identifier>
									<type>
										<coding>
											<system value="https://fhir.gkvsv.de/CodeSystem/GKVSV_CS_ERP_Leistungserbringertyp"/>
											<code value="A"/>
										</coding>
									</type>
									<system value="http://fhir.de/sid/arge-ik/iknr"/>
									<value value="308412345"/>
								</identifier>
							</issuer>
							<lineItem>
								<extension url="https://fhir.gkvsv.de/StructureDefinition/GKVSV_EX_ERP_Positionstyp">
									<valueCodeableConcept>
										<coding>
											<system value="https://fhir.gkvsv.de/CodeSystem/GKVSV_CS_ERP_Positionstyp"/>
											<code value="1"/>
											<display value="체brige Position"/>
										</coding>
									</valueCodeableConcept>
								</extension>
								<extension url="https://fhir.gkvsv.de/StructureDefinition/GKVSV_EX_ERP_VAT_VALUE">
									<valueMoney>
										<value value="6.08"/>
										<currency value="EUR"/>
									</valueMoney>
								</extension>
								<extension url="https://fhir.gkvsv.de/StructureDefinition/GKVSV_EX_ERP_Import">
									<valueCodeableConcept>
										<coding>
											<system value="https://fhir.gkvsv.de/CodeSystem/GKVSV_CS_ERP_Import"/>
											<code value="0"/>
										</coding>
									</valueCodeableConcept>
								</extension>
								<sequence value="1"/>
								<chargeItemCodeableConcept>
									<coding>
										<system value="http://terminology.hl7.org/CodeSystem/v3-NullFlavor"/>
										<code value="UNC"/>
									</coding>
								</chargeItemCodeableConcept>
								<priceComponent>
									<type value="deduction"/>
									<code>
										<coding>
											<system value="https://fhir.gkvsv.de/CodeSystem/GKVSV_CS_ERP_ZuAbschlagKey"/>
											<code value="R001"/>
										</coding>
									</code>
									<amount>
										<value value="-1.77"/>
										<currency value="EUR"/>
									</amount>
								</priceComponent>
							</lineItem>
						</Invoice>
					</resource>
				</entry>
			</Bundle>
		</resource>
	</entry>
</Bundle>